19.06.2025; 03:22; Start Datenerfassung

Zeit	Ausgangsspannung Br�ckenverst�rker
[s]	[V]
0,000	-0,005503
0,210	-0,002872
0,418	-0,004845
0,626	-0,005174
0,835	-0,004516
1,042	-0,004187
1,251	-0,004845
1,459	-0,003858
1,668	-0,006160
1,877	-0,004516
2,085	-0,006160
2,295	-0,004845
2,504	-0,003529
2,713	-0,002214
2,922	-0,005832
3,130	-0,005832
3,339	-0,004516
3,547	-0,003858
3,755	-0,006160
3,963	-0,005503
4,171	-0,006489
4,379	-0,005832
4,587	-0,006818
4,795	-0,005174
5,003	-0,005832
5,212	-0,008463
5,420	-0,004845
5,629	-0,006489
5,837	-0,005174
6,045	-0,006160
6,253	-0,003858
6,462	-0,006160
6,670	-0,005832
6,879	-0,004516
7,087	-0,005503
7,296	-0,006818
7,505	-0,006160
7,713	-0,007147
7,922	-0,006818
8,131	-0,006818
8,339	-0,007147
8,547	-0,005832
8,755	-0,007476
8,964	-0,006489
9,172	-0,007805
9,380	-0,007805
9,589	-0,006489
9,797	-0,007147
10,005	-0,005832
10,214	-0,009449
10,423	-0,007805
10,632	-0,007476
10,841	-0,005503
11,049	-0,006489
11,259	-0,006818
11,468	-0,006818
11,676	-0,006818
11,885	-0,007805
12,094	-0,006489
12,302	-0,007805
12,510	-0,008134
12,718	-0,006489
12,926	-0,005503
13,135	-0,006818
13,343	-0,006489
13,551	-0,005174
13,759	-0,006489
13,967	-0,008792
14,175	-0,007805
14,383	-0,007147
14,591	-0,007476
14,800	-0,008792
15,008	-0,008134
15,216	-0,006818
15,424	-0,009120
15,632	-0,006489
15,840	-0,006160
16,049	-0,006489
16,257	-0,006818
16,465	-0,008134
16,673	-0,008792
16,882	-0,007476
17,090	-0,006818
17,299	-0,007147
17,507	-0,009120
17,715	-0,009120
17,923	-0,009120
18,132	-0,007805
18,340	-0,006818
18,548	-0,009449
18,756	-0,007476
18,964	-0,008463
19,172	-0,009778
19,380	-0,009449
19,589	-0,010107
19,797	-0,008792
20,005	-0,009449
20,213	-0,009449
20,422	0,161568
20,630	0,449995
20,838	1,035070
21,046	1,767484
21,256	2,272313
21,464	2,489374
21,672	2,527195
21,881	2,532457
22,089	2,525879
22,298	2,517000
22,506	2,513382
22,715	2,514697
22,923	2,516013
23,132	2,515026
23,340	2,511737
23,548	2,514040
23,756	2,516342
23,964	2,515026
24,172	2,515355
24,380	2,517000
24,588	2,514368
24,797	2,512395
25,005	2,516013
25,213	2,515355
25,421	2,515355
25,629	2,516342
25,837	2,516342
26,046	2,514368
26,255	2,516671
26,463	2,515355
26,672	2,514368
26,881	2,515026
27,089	2,518315
27,297	2,517000
27,505	2,515355
27,713	2,515684
27,921	2,516671
28,129	2,515355
28,337	2,517657
28,545	2,518973
28,753	2,515684
28,961	2,513053
29,169	2,515355
29,377	2,514368
29,585	2,516013
29,793	2,515355
30,002	2,514697
30,210	2,517000
30,418	2,513711
30,626	2,516671
30,834	2,517000
31,042	2,514040
31,251	2,519631
31,459	2,512724
31,667	2,514368
31,875	2,516013
32,083	2,514368
32,291	2,515026
32,500	2,513382
32,708	2,515355
32,916	2,514040
33,125	2,513711
33,333	2,514697
33,541	2,515684
33,749	2,515026
33,957	2,513382
34,165	2,514697
34,373	2,515026
34,581	2,513382
34,789	2,513053
34,997	2,514368
35,206	2,297966
35,414	0,906150
35,622	0,050078
35,830	-0,006818
36,039	-0,006489
36,247	-0,007147
36,455	-0,007476
36,663	-0,008134
36,871	-0,006818
37,079	-0,009120
37,288	-0,010107
37,496	-0,009449
37,705	-0,008792
37,914	-0,009120
38,122	-0,008792
38,331	-0,010765
38,539	-0,010765
38,747	-0,010107
38,956	-0,012738
39,164	-0,009778
39,373	-0,009449
39,581	-0,011423
39,790	-0,012409
39,999	-0,011751
40,208	-0,011423
40,416	-0,011751
40,625	-0,012080
40,833	-0,011423
41,042	-0,011094
41,250	-0,010436
41,458	-0,010436
41,666	-0,012738
41,874	-0,011751
42,082	-0,011094
42,290	-0,013067
42,498	-0,011751
42,706	-0,012080
42,914	-0,011751
43,122	-0,009120
43,330	-0,000241
43,538	0,398032
43,746	1,628368
43,954	2,315397
44,163	2,449579
44,371	2,487729
44,580	2,497925
44,789	2,484769
44,997	2,482796
45,205	2,503187
45,413	2,513711
45,621	2,510093
45,829	2,512395
46,038	2,514040
46,246	2,509106
46,454	2,510751
46,662	2,514697
46,871	2,513053
47,080	2,512395
47,288	2,513053
47,497	2,512724
47,705	2,510093
47,913	2,513711
48,121	2,513053
48,329	2,512066
48,537	2,512724
48,745	2,511737
48,953	2,512395
49,161	2,513382
49,369	2,514368
49,578	2,509106
49,786	2,509764
49,994	2,510751
50,203	2,513053
50,411	2,512066
50,619	2,511409
50,827	2,511737
51,036	2,511737
51,244	2,512066
51,453	2,511080
51,661	2,511737
51,869	2,508449
52,077	2,510751
52,286	2,510422
52,494	2,509106
52,703	2,510751
52,912	2,510751
53,120	2,510751
53,328	2,509106
53,537	2,512066
53,745	2,510422
53,953	2,510751
54,161	2,509764
54,369	2,510093
54,577	2,512395
54,785	2,510093
54,994	2,509435
55,202	2,508449
55,410	2,510093
55,618	2,509106
55,826	2,511409
56,035	2,508449
56,243	2,511409
56,451	2,510422
56,659	2,511737
56,867	2,511737
57,075	2,509764
57,283	2,509764
57,492	2,511080
57,700	2,510751
57,909	2,510751
58,117	2,509764
58,325	2,509106
58,533	2,508778
58,741	2,508778
58,949	2,510093
59,157	2,508449
59,365	2,510093
59,573	2,508120
59,781	2,514697
59,990	2,508778
60,198	2,168388
60,406	0,776900
60,614	0,229646
60,822	-0,006489
61,030	-0,014382
61,238	-0,014711
61,446	-0,016356
61,654	-0,017671
61,862	-0,017013
62,070	-0,018000
62,279	-0,015369
62,487	-0,016685
62,696	-0,017671
62,905	-0,018329
63,113	-0,018329
63,321	-0,019973
63,529	-0,018329
63,737	-0,019316
63,946	-0,018329
64,154	-0,019645
64,362	-0,017013
64,571	-0,019645
64,780	-0,020631
64,989	-0,019645
65,198	-0,019973
65,406	-0,021618
65,614	-0,019973
65,822	-0,021289
66,030	-0,018987
66,238	-0,020631
66,446	-0,020302
66,654	-0,020960
66,862	-0,020631
67,071	-0,023262
67,279	-0,020302
67,487	-0,019316
67,695	-0,021947
67,903	-0,020631
68,112	-0,021289
68,320	-0,022276
68,528	-0,019316
68,736	-0,023262
68,944	-0,021289
69,152	-0,023262
69,360	-0,024907
69,568	-0,023591
69,776	-0,022933
69,985	-0,023262
70,193	-0,023591
70,401	-0,022276
70,609	-0,022276
70,817	-0,023591
71,025	-0,022933
71,233	0,081979
71,441	1,022244
71,649	2,034534
71,858	2,294019
72,066	2,390381
72,274	2,446619
72,483	2,484769
72,691	2,501542
72,899	2,494965
73,107	2,495293
73,315	2,495951
73,523	2,499569
73,731	2,496280
73,940	2,495622
74,148	2,497267
74,357	2,496280
74,566	2,499240
74,774	2,497925
74,982	2,496938
75,190	2,497596
75,399	2,497925
75,607	2,497267
75,816	2,499240
76,025	2,497267
76,233	2,496609
76,441	2,497267
76,650	2,497596
76,858	2,496938
77,067	2,497267
77,276	2,493649
77,484	2,496938
77,693	2,497925
77,901	2,496280
78,109	2,494307
78,317	2,496938
78,526	2,495293
78,734	2,496938
78,942	2,497925
79,150	2,495951
79,359	2,495622
79,567	2,495622
79,775	2,497596
79,983	2,496938
80,191	2,496280
80,400	2,493978
80,608	2,497267
80,816	2,495622
81,025	2,496609
81,233	2,495622
81,441	2,495951
81,649	2,496938
81,858	2,495293
82,066	2,491676
82,274	2,409127
82,483	1,811225
82,692	0,619696
82,900	0,138546
83,108	-0,018329
83,316	-0,025235
83,524	-0,024578
83,732	-0,022604
83,941	-0,069634
84,149	-0,058452
84,357	-0,023591
84,565	-0,025893
84,773	-0,026880
84,981	-0,025235
85,189	-0,026880
85,397	-0,025564
85,605	-0,026551
85,814	-0,024578
86,023	-0,027209
86,232	-0,024907
86,440	-0,024249
86,649	-0,025893
86,858	-0,026880
87,066	-0,027538
87,274	-0,027866
87,482	-0,028195
87,691	-0,028195
87,899	-0,028195
88,107	-0,027538
88,316	-0,028853
88,524	-0,027866
88,733	-0,029511
88,941	-0,026551
89,149	-0,029182
89,357	-0,028195
89,565	-0,030498
89,773	-0,027866
89,981	-0,029840
90,190	-0,028524
90,398	-0,030169
90,606	-0,026551
90,814	-0,028853
91,022	-0,029182
91,230	-0,028524
91,438	-0,027866
91,646	-0,030498
91,854	-0,028195
92,063	-0,029511
92,271	0,052051
92,479	0,487816
92,687	1,248842
92,896	2,047360
93,104	2,335787
93,312	2,437411
93,520	2,477863
93,728	2,490360
93,936	2,494965
94,144	2,492005
94,352	2,490689
94,560	2,495293
94,769	2,493649
94,978	2,490360
95,186	2,495951
95,394	2,493978
95,602	2,493320
95,810	2,495622
96,020	2,494636
96,228	2,491347
96,436	2,492662
96,644	2,493649
96,852	2,493320
97,061	2,492991
97,269	2,496280
97,477	2,493649
97,685	2,493320
97,893	2,494636
98,102	2,492005
98,311	2,494965
98,519	2,492005
98,727	2,492662
98,935	2,493649
99,143	2,494307
99,351	2,492005
99,559	2,494307
99,768	2,493649
99,976	2,492991
100,185	2,494307
100,393	2,493978
100,602	2,492334
100,810	2,494307
101,018	2,492005
101,226	2,494307
101,434	2,494636
101,642	2,492334
101,850	2,493649
102,058	2,491018
102,267	2,492991
102,475	2,492991
102,684	2,492334
102,892	2,492334
103,100	2,493649
103,308	2,491676
103,516	2,490031
103,724	2,491676
103,933	2,496938
104,141	2,491676
104,349	2,209826
104,557	0,796962
104,766	0,140191
104,974	-0,029182
105,182	-0,029511
105,389	-0,030498
105,597	-0,030498
105,805	-0,029840
106,013	-0,030169
106,221	-0,032800
106,430	-0,032142
106,639	-0,031484
106,847	-0,031813
107,055	-0,032142
107,265	-0,033129
107,473	-0,033457
107,682	-0,032800
107,890	-0,034115
108,098	-0,032800
108,307	-0,032471
108,516	-0,033129
108,725	-0,032800
108,934	-0,034773
109,142	-0,034115
109,350	-0,036088
109,559	-0,034773
109,767	-0,035102
109,976	-0,035102
110,184	-0,034115
110,392	-0,034773
110,600	-0,034115
110,808	-0,035760
111,016	-0,037075
111,224	-0,034115
111,432	-0,036088
111,640	-0,035760
111,848	-0,037075
112,057	-0,035760
112,265	-0,034115
112,474	-0,036088
112,682	-0,034444
112,890	-0,034444
113,098	-0,036088
113,307	-0,034773
113,516	-0,036417
113,724	-0,035431
113,933	-0,035431
114,142	-0,036417
114,351	-0,035760
114,559	-0,034773
114,767	-0,034773
114,976	-0,036417
115,184	-0,036088
115,392	-0,036417
115,601	-0,037075
115,809	-0,036088
116,018	-0,034115
116,226	-0,033457
116,434	-0,035431
116,643	-0,037404
116,851	-0,034773
117,059	-0,035760
117,268	-0,037404
117,476	-0,035760
117,684	-0,037733
117,892	-0,036088
118,100	-0,038062
118,308	-0,038062
118,517	-0,037733
118,726	-0,037404
118,934	0,008310
119,142	-0,005503
119,350	0,212544
119,558	1,232727
119,766	2,097350
119,975	2,374924
120,183	2,442673
120,391	2,470956
120,600	2,505160
120,808	2,495951
121,017	2,496938
121,226	2,492662
121,434	2,492991
121,642	2,495622
121,850	2,494965
122,059	2,494636
122,268	2,496609
122,477	2,494965
122,685	2,493978
122,893	2,494307
123,102	2,494965
123,309	2,494965
123,517	2,495293
123,725	2,494965
123,934	2,495293
124,142	2,492991
124,350	2,494307
124,559	2,492991
124,767	2,494307
124,975	2,494965
125,183	2,493320
125,391	2,493649
125,599	2,494636
125,808	2,496280
126,017	2,493649
126,225	2,493978
126,433	2,492991
126,641	2,492334
126,849	2,497925
127,057	2,494307
127,265	2,492005
127,473	2,493320
127,681	2,493649
127,890	2,493649
128,099	2,494636
128,308	2,492991
128,516	2,494965
128,724	2,493320
128,932	2,491676
129,140	2,493320
129,348	2,492991
129,556	2,490689
129,764	2,491347
129,972	2,490689
130,179	2,492662
130,387	2,493320
130,595	2,491347
130,803	2,490689
131,011	2,492334
131,220	2,491018
131,428	2,492662
131,636	2,492991
131,844	2,492662
132,052	2,493320
132,260	2,491018
132,468	2,491018
132,676	2,492334
132,884	2,491676
133,092	2,489703
133,300	2,489045
133,508	2,490689
133,717	2,490031
133,926	2,492334
134,134	2,492334
134,343	2,489703
134,551	2,489703
134,759	2,491018
134,967	2,490031
135,175	2,490031
135,384	2,492662
135,592	2,393670
135,800	1,161031
136,009	0,470385
136,217	0,177683
136,426	0,005021
136,634	-0,031155
136,842	-0,038062
137,050	-0,033129
137,258	-0,025564
137,466	-0,035102
137,674	-0,034115
137,882	-0,038391
138,091	-0,037733
